Data from AbsoluteIrradiance__0__99.txt Node

Date: Fri Sep 23 13:53:20 CDT 2022
User: jwaczak
Spectrometer: HR4D3312
Trigger mode: 4
Integration Time (sec): 2.000000E-1
Scans to average: 5
Electric dark correction enabled: true
Nonlinearity correction enabled: true
Boxcar width: 5
XAxis mode: Wavelengths
Number of Pixels in Spectrum: 3648
>>>>>Begin Spectral Data<<<<<
194.249	0
194.519	0
194.789	0
195.059	0
195.329	0
195.599	0
195.868	0
196.138	0
196.408	0
196.678	0
196.948	-0
197.218	-0
197.488	-0
197.758	-0
198.028	-0
198.297	-0
198.567	-0
198.837	-0
199.107	-0
199.377	-0
199.647	-0
199.916	-0
200.186	-6.92
200.456	-7.04
200.726	-5.76
200.996	-5.33
201.265	-7.87
201.535	-4.48
201.805	-3.45
202.075	-5.31
202.344	-6.85
202.614	-3.91
202.884	-2.14
203.153	-2.62
203.423	-4.73
203.693	-2.34
203.962	-0.73
204.232	3.58
204.502	-0.15
204.772	-0.81
205.041	3.15
205.311	4.64
205.58	2.28
205.85	1.63
206.12	3.15
206.389	5.83
206.659	2.58
206.929	2.81
207.198	1.15
207.468	2.51
207.737	0.4
208.007	-0.41
208.276	0.12
208.546	-1
208.815	-2.59
209.085	-3.94
209.355	-4.34
209.624	-3.18
209.894	-6.83
210.163	-5.45
210.433	-4.71
210.702	-3.97
210.972	-5.23
211.241	-3.14
211.51	-1.29
211.78	-0.5
212.049	-0.67
212.319	0.04
212.588	-0.43
212.858	0.89
213.127	-0.8
213.397	-1
213.666	0.15
213.935	-2.31
214.205	-7.48
214.474	-5.96
214.743	-2.82
215.013	-0.78
215.282	-2.68
215.552	-2.28
215.821	-1.46
216.09	0.21
216.359	-1.79
216.629	-1.9
216.898	2.41
217.167	6.38
217.437	3.49
217.706	1.77
217.975	-0.25
218.245	-1.13
218.514	-1.83
218.783	-1.6
219.052	-2.1
219.321	-0.11
219.591	-0.88
219.86	-2.73
220.129	-4.37
220.398	-4.9
220.668	-6.07
220.937	-6.08
221.206	-4.05
221.475	-3.13
221.744	-2.91
222.013	-2.42
222.283	-2.49
222.552	-3.46
222.821	-5.03
223.09	-2.8
223.359	-0.52
223.628	-1.13
223.897	-3.8
224.166	-1.91
224.435	-0.08
224.704	0.08
224.974	-1.66
225.243	-1.69
225.512	0.66
225.781	3.01
226.05	1.33
226.319	2.73
226.588	2.67
226.857	4.82
227.126	2.35
227.395	0.54
227.664	0.05
227.933	1.76
228.202	-0
228.471	0.65
228.74	1.36
229.009	1.17
229.278	-0.75
229.546	-0.17
229.815	1.03
230.084	1.78
230.353	0.3
230.622	0.96
230.891	0.5
231.16	0.87
231.429	0.17
231.698	0.63
231.966	0.74
232.235	0.64
232.504	-0.02
232.773	-0.5
233.042	0.44
233.311	1.3
233.579	0.14
233.848	0.19
234.117	1.33
234.386	0.45
234.655	-1.4
234.923	-1.23
235.192	-1.13
235.461	-1.21
235.73	-1.45
235.998	-1.82
236.267	-1.32
236.536	-0.66
236.804	-1.11
237.073	-1.76
237.342	-0.93
237.611	-0.66
237.879	-0.79
238.148	-0.36
238.417	0.23
238.685	0.84
238.954	0.47
239.223	0.66
239.491	0.68
239.76	0.65
240.028	0.53
240.297	0.46
240.566	0.72
240.834	0.75
241.103	0.44
241.371	0.47
241.64	0.23
241.909	0.08
242.177	-0.38
242.446	-0.37
242.714	-0.13
242.983	0.13
243.251	-0.28
243.52	-0.34
243.788	-0.09
244.057	-0.08
244.325	-0.57
244.594	-0.95
244.862	-0.57
245.131	-0.68
245.399	-1.09
245.668	-1.29
245.936	-1.36
246.204	-1.23
246.473	-1.31
246.741	-1.13
247.01	-0.91
247.278	-0.73
247.546	-0.62
247.815	-0.64
248.083	-0.46
248.352	-0.22
248.62	-0.28
248.888	-0.2
249.157	-0.1
249.425	-0.34
249.693	-0.7
249.962	-0.8
250.23	-0.65
250.498	-0.45
250.767	-0.61
251.035	-0.54
251.303	-0.3
251.571	-0.13
251.84	-0.35
252.108	-0.32
252.376	0.07
252.644	-0.01
252.913	-0.06
253.181	-0.01
253.449	0.07
253.717	0.16
253.985	-0.15
254.254	-0.48
254.522	-0.4
254.79	-0.23
255.058	-0.25
255.326	-0.33
255.594	-0.09
255.863	-0.05
256.131	-0.35
256.399	-0.39
256.667	-0.43
256.935	-0.35
257.203	-0.23
257.471	-0.22
257.739	-0.11
258.007	-0.21
258.275	-0.25
258.544	-0.3
258.812	-0.22
259.08	-0.15
259.348	-0.34
259.616	-0.23
259.884	-0.08
260.152	-0.05
260.42	-0.27
260.688	-0.19
260.956	-0.01
261.224	0.05
261.492	-0.04
261.76	0.06
262.028	0.29
262.296	0.43
262.563	0.36
262.831	0.35
263.099	0.34
263.367	0.38
263.635	0.04
263.903	0
264.171	-0
264.439	0.09
264.707	-0.05
264.975	-0.18
265.242	-0.18
265.51	-0.31
265.778	-0.33
266.046	-0.29
266.314	-0.12
266.582	0.07
266.849	-0
267.117	0.01
267.385	0.01
267.653	0.02
267.921	-0.08
268.188	-0.07
268.456	0.12
268.724	0.14
268.992	0.04
269.259	-0.02
269.527	0.03
269.795	0.05
270.062	0.03
270.33	0.03
270.598	0.09
270.866	0.24
271.133	0.21
271.401	0.21
271.669	0.29
271.936	0.33
272.204	0.24
272.472	0.24
272.739	0.32
273.007	0.33
273.274	0.26
273.542	0.23
273.81	0.2
274.077	0.21
274.345	0.08
274.612	0.07
274.88	0.15
275.147	0.13
275.415	0.11
275.683	0.07
275.95	0.11
276.218	0.14
276.485	0.06
276.753	0.06
277.02	0.04
277.288	0.05
277.555	-0.1
277.823	-0.16
278.09	-0.09
278.358	-0.12
278.625	-0.19
278.892	-0.19
279.16	-0.17
279.427	-0.13
279.695	-0.15
279.962	-0.08
280.23	-0.04
280.497	0.03
280.764	-0.03
281.032	-0.03
281.299	0.01
281.566	0.03
281.834	0.01
282.101	0.06
282.368	0.07
282.636	0.1
282.903	0.01
283.17	0.02
283.438	0.03
283.705	0.04
283.972	0.02
284.24	0
284.507	0.01
284.774	-0
285.041	-0.1
285.309	-0.08
285.576	-0.08
285.843	-0.06
286.11	-0.09
286.378	-0.05
286.645	-0.01
286.912	0
287.179	-0.06
287.446	-0.04
287.714	-0.03
287.981	-0.02
288.248	-0.07
288.515	-0.11
288.782	-0.08
289.049	-0.08
289.316	-0.11
289.584	-0.1
289.851	-0.09
290.118	-0.08
290.385	-0.13
290.652	-0.11
290.919	-0.07
291.186	-0.02
291.453	-0.02
291.72	-0.03
291.987	-0.01
292.254	-0.02
292.521	-0.04
292.788	-0.03
293.055	-0
293.322	0.05
293.589	0
293.856	-0.01
294.123	-0
294.39	0.01
294.657	0
294.924	0.03
295.191	0.02
295.458	-0
295.725	-0.05
295.992	-0.04
296.259	-0.05
296.526	-0.06
296.793	-0.05
297.06	-0.09
297.326	-0.08
297.593	-0.07
297.86	-0.12
298.127	-0.09
298.394	-0.04
298.661	-0.01
298.927	-0.03
299.194	-0.01
299.461	0.03
299.728	0.03
299.995	-0.01
300.262	-0
300.528	0
300.795	0.03
301.062	0
301.329	0.03
301.595	0.04
301.862	0.04
302.129	0.02
302.396	0.02
302.662	0.02
302.929	0.04
303.196	0.02
303.462	0.03
303.729	0.05
303.996	0.05
304.262	0
304.529	0.01
304.796	0.05
305.062	0.05
305.329	0.02
305.596	0.03
305.862	0.04
306.129	0.05
306.395	0.03
306.662	0.03
306.929	0.05
307.195	0.05
307.462	0.01
307.728	-0.01
307.995	-0.01
308.261	0
308.528	-0.02
308.794	-0.01
309.061	-0
309.328	-0.03
309.594	-0.05
309.861	-0.04
310.127	-0.04
310.393	-0.02
310.66	-0.04
310.926	-0.01
311.193	-0.01
311.459	0.01
311.726	-0
311.992	0
312.259	0.03
312.525	0.05
312.791	0.02
313.058	0.04
313.324	0.04
313.591	0.03
313.857	0.01
314.123	0.03
314.39	0.03
314.656	0.03
314.922	0.01
315.189	0.02
315.455	0.03
315.721	0.03
315.988	-0.02
316.254	-0.02
316.52	0.02
316.786	-0.01
317.053	-0.03
317.319	-0.03
317.585	0
317.852	0
318.118	-0.04
318.384	-0.04
318.65	-0.01
318.916	0
319.183	-0.01
319.449	-0
319.715	0.04
319.981	0.04
320.247	0.01
320.514	0.01
320.78	0.03
321.046	0.05
321.312	0.03
321.578	0.04
321.844	0.06
322.11	0.07
322.376	0.04
322.643	0.05
322.909	0.06
323.175	0.05
323.441	0.04
323.707	0.03
323.973	0.03
324.239	0.03
324.505	0
324.771	-0
325.037	-0
325.303	0.01
325.569	-0.01
325.835	0.01
326.101	0.02
326.367	0
326.633	-0.01
326.899	0
327.165	0.01
327.431	0.03
327.697	0.02
327.963	0.02
328.229	0.03
328.495	0.02
328.761	-0.02
329.026	-0.02
329.292	-0.01
329.558	-0
329.824	-0.01
330.09	-0.01
330.356	-0.01
330.622	-0.01
330.888	-0.02
331.153	-0.04
331.419	-0.01
331.685	0
331.951	-0
332.217	0.01
332.482	0.02
332.748	0.01
333.014	-0.01
333.28	0.01
333.546	0.01
333.811	0.02
334.077	0.01
334.343	0.02
334.608	0.03
334.874	0.04
335.14	0.02
335.406	0.02
335.671	0.04
335.937	0.05
336.203	0.02
336.468	0.04
336.734	0.04
337	0.05
337.265	0.02
337.531	0.02
337.797	0.02
338.062	0.02
338.328	0.02
338.593	0.01
338.859	0.02
339.125	0.03
339.39	0.02
339.656	0.03
339.921	0.03
340.187	0.03
340.452	0.01
340.718	0.02
340.983	0.03
341.249	0.03
341.514	0.01
341.78	0
342.045	0.02
342.311	-0.01
342.576	-0.03
342.842	-0.02
343.107	-0.02
343.373	-0.01
343.638	-0.04
343.904	-0.04
344.169	-0.03
344.435	-0.02
344.7	-0.04
344.965	-0.04
345.231	-0.02
345.496	-0
345.761	-0.02
346.027	-0
346.292	0
346.558	0.01
346.823	0
347.088	0
347.354	0
347.619	0.01
347.884	0
348.149	0.01
348.415	0
348.68	0
348.945	-0.01
349.211	-0
349.476	0.01
349.741	0.02
350.006	0
350.272	0.01
350.537	0.02
350.802	0.02
351.067	0
351.332	0.01
351.598	0.01
351.863	0.01
352.128	-0.01
352.393	-0.02
352.658	-0.01
352.924	-0.01
353.189	-0.04
353.454	-0.04
353.719	-0.04
353.984	-0.03
354.249	-0.04
354.514	-0.03
354.779	-0.02
355.044	-0.01
355.309	-0.02
355.575	-0.01
355.84	-0
356.105	0.01
356.37	-0.01
356.635	-0.01
356.9	0
357.165	-0
357.43	-0.01
357.695	-0.02
357.96	-0.01
358.225	-0.02
358.49	-0.03
358.755	-0.03
359.02	-0.02
359.285	-0.01
359.55	-0.01
359.815	-0.01
360.079	0.01
360.344	0
360.609	-0.01
360.874	-0
361.139	0.01
361.404	0.01
361.669	0
361.934	0.01
362.199	0.01
362.463	0.01
362.728	-0
362.993	-0.01
363.258	0.01
363.523	0.01
363.788	-0.01
364.052	-0
364.317	0.01
364.582	0.02
364.847	0.01
365.111	0.01
365.376	0.01
365.641	0.02
365.906	0.01
366.17	0.01
366.435	0.02
366.7	0.02
366.965	0.01
367.229	0.01
367.494	0.01
367.759	-0
368.023	0
368.288	0.01
368.553	0.01
368.817	0.02
369.082	0.01
369.347	0.01
369.611	0.02
369.876	0.01
370.14	-0
370.405	0
370.67	0.01
370.934	-0
371.199	-0.01
371.463	-0.02
371.728	-0.02
371.992	-0.01
372.257	-0.02
372.522	-0.02
372.786	0
373.051	0.01
373.315	-0
373.58	-0
373.844	0.01
374.109	0.01
374.373	0.01
374.637	0.01
374.902	0.02
375.166	0.02
375.431	0.01
375.695	0
375.96	0.01
376.224	0.01
376.489	0
376.753	0.01
377.017	0.02
377.282	0.02
377.546	0.01
377.81	0.01
378.075	0.01
378.339	0.01
378.603	-0.01
378.868	-0
379.132	0.01
379.396	0
379.661	-0.02
379.925	-0.01
380.189	-0.01
380.454	-0.01
380.718	-0.03
380.982	-0.02
381.246	-0
381.511	0.01
381.775	0
382.039	0
382.303	0.02
382.568	0.03
382.832	0.02
383.096	0.02
383.36	0.03
383.624	0.04
383.888	0.02
384.153	0.02
384.417	0.02
384.681	0.02
384.945	0.01
385.209	0.01
385.473	0.01
385.737	0.01
386.002	-0
386.266	-0
386.53	0.01
386.794	0.01
387.058	-0
387.322	0
387.586	0.01
387.85	0.02
388.114	0.01
388.378	0.01
388.642	0.01
388.906	0.01
389.17	0.01
389.434	0.01
389.698	0.02
389.962	0.02
390.226	0
390.49	-0.01
390.754	0
391.018	-0.01
391.282	-0.02
391.546	-0.01
391.81	-0.01
392.074	-0.01
392.337	-0.02
392.601	-0.02
392.865	-0.01
393.129	-0.01
393.393	-0.02
393.657	-0.02
393.921	0
394.185	0.01
394.448	0
394.712	0.01
394.976	0.02
395.24	0.02
395.504	0.01
395.767	0.01
396.031	0.02
396.295	0.03
396.559	0.02
396.822	0.02
397.086	0.03
397.35	0.03
397.614	0.01
397.877	0.01
398.141	0.03
398.405	0.02
398.669	0.01
398.932	0.01
399.196	0.02
399.46	0.03
399.723	0.01
399.987	0.01
400.251	0.02
400.514	0.02
400.778	0.01
401.041	0.01
401.305	0.03
401.569	0.03
401.832	0.02
402.096	0.01
402.359	0.02
402.623	0.02
402.887	0.02
403.15	0.03
403.414	0.03
403.677	0.03
403.941	0.02
404.204	0.02
404.468	0.04
404.731	0.04
404.995	0.03
405.258	0.04
405.522	0.04
405.785	0.04
406.049	0.02
406.312	0.03
406.575	0.04
406.839	0.04
407.102	0.02
407.366	0.01
407.629	0.01
407.893	0.02
408.156	0.01
408.419	0.01
408.683	0.02
408.946	0.03
409.209	0.02
409.473	0.02
409.736	0.03
409.999	0.04
410.263	0.03
410.526	0.02
410.789	0.03
411.053	0.02
411.316	0.01
411.579	0.01
411.843	0.01
412.106	0.01
412.369	-0.01
412.632	-0
412.896	0
413.159	0.01
413.422	0
413.685	0
413.948	0.01
414.212	0.01
414.475	-0
414.738	-0.01
415.001	0.01
415.264	0.01
415.527	0
415.791	0.01
416.054	0.01
416.317	0.01
416.58	-0
416.843	0
417.106	0.02
417.369	0.02
417.632	0.01
417.895	0.02
418.158	0.02
418.422	0.02
418.685	0.01
418.948	0.01
419.211	0.03
419.474	0.03
419.737	0.01
420	0.01
420.263	0.02
420.526	0.03
420.789	0.01
421.052	0.01
421.315	0.01
421.578	0.01
421.841	0
422.103	0
422.366	0.01
422.629	0.02
422.892	0.01
423.155	0.01
423.418	0.01
423.681	0.02
423.944	0.01
424.207	0.02
424.47	0.03
424.732	0.03
424.995	0.02
425.258	0.02
425.521	0.02
425.784	0.03
426.047	0.02
426.309	0.03
426.572	0.04
426.835	0.04
427.098	0.03
427.36	0.03
427.623	0.03
427.886	0.03
428.149	0.02
428.411	0.02
428.674	0.03
428.937	0.03
429.2	0.02
429.462	0.01
429.725	0.02
429.988	0.02
430.25	0.02
430.513	0.01
430.776	0.02
431.038	0.02
431.301	0.02
431.564	0.02
431.826	0.01
432.089	0.02
432.351	0.01
432.614	0.02
432.877	0.02
433.139	0.03
433.402	0.03
433.664	0.03
433.927	0.06
434.189	0.07
434.452	0.08
434.715	0.11
434.977	0.14
435.24	0.17
435.502	0.19
435.765	0.22
436.027	0.25
436.289	0.26
436.552	0.25
436.814	0.24
437.077	0.23
437.339	0.22
437.602	0.19
437.864	0.17
438.127	0.14
438.389	0.12
438.651	0.08
438.914	0.06
439.176	0.05
439.439	0.04
439.701	0.03
439.963	0.03
440.226	0.04
440.488	0.03
440.75	0.03
441.013	0.03
441.275	0.03
441.537	0.04
441.8	0.03
442.062	0.03
442.324	0.04
442.586	0.04
442.849	0.03
443.111	0.03
443.373	0.04
443.635	0.05
443.898	0.04
444.16	0.04
444.422	0.04
444.684	0.04
444.946	0.03
445.209	0.03
445.471	0.04
445.733	0.04
445.995	0.03
446.257	0.03
446.519	0.03
446.782	0.03
447.044	0.02
447.306	0.02
447.568	0.03
447.83	0.03
448.092	0.03
448.354	0.02
448.616	0.03
448.878	0.03
449.14	0.02
449.402	0.02
449.664	0.03
449.926	0.04
450.188	0.03
450.45	0.03
450.712	0.04
450.974	0.04
451.236	0.04
451.498	0.04
451.76	0.05
452.022	0.05
452.284	0.04
452.546	0.04
452.808	0.04
453.07	0.04
453.332	0.03
453.594	0.03
453.856	0.03
454.118	0.03
454.38	0.02
454.642	0.02
454.903	0.02
455.165	0.02
455.427	0.01
455.689	0.01
455.951	0.02
456.213	0.02
456.474	0.02
456.736	0.02
456.998	0.02
457.26	0.02
457.522	0.01
457.783	0.01
458.045	0.03
458.307	0.02
458.569	0.01
458.83	0.01
459.092	0.02
459.354	0.01
459.615	0
459.877	0.01
460.139	0.02
460.401	0.01
460.662	0.01
460.924	0
461.186	0.01
461.447	0.02
461.709	0.02
461.97	0.01
462.232	0.02
462.494	0.03
462.755	0.02
463.017	0.02
463.279	0.03
463.54	0.03
463.802	0.02
464.063	0.03
464.325	0.03
464.586	0.03
464.848	0.02
465.109	0.02
465.371	0.03
465.632	0.04
465.894	0.03
466.155	0.03
466.417	0.03
466.678	0.04
466.94	0.03
467.201	0.03
467.463	0.03
467.724	0.04
467.986	0.03
468.247	0.03
468.508	0.03
468.77	0.03
469.031	0.02
469.293	0.03
469.554	0.03
469.815	0.04
470.077	0.03
470.338	0.03
470.599	0.03
470.861	0.03
471.122	0.02
471.383	0.02
471.645	0.03
471.906	0.03
472.167	0.02
472.429	0.02
472.69	0.02
472.951	0.02
473.212	0.02
473.474	0.02
473.735	0.02
473.996	0.03
474.257	0.02
474.519	0.02
474.78	0.03
475.041	0.04
475.302	0.03
475.563	0.04
475.825	0.04
476.086	0.04
476.347	0.04
476.608	0.04
476.869	0.04
477.13	0.04
477.391	0.03
477.653	0.03
477.914	0.03
478.175	0.04
478.436	0.03
478.697	0.03
478.958	0.04
479.219	0.04
479.48	0.03
479.741	0.03
480.002	0.04
480.263	0.04
480.524	0.04
480.785	0.04
481.046	0.04
481.307	0.05
481.568	0.03
481.829	0.03
482.09	0.04
482.351	0.04
482.612	0.03
482.873	0.04
483.134	0.04
483.395	0.05
483.656	0.04
483.917	0.05
484.177	0.05
484.438	0.06
484.699	0.06
484.96	0.07
485.221	0.07
485.482	0.08
485.743	0.08
486.003	0.08
486.264	0.08
486.525	0.09
486.786	0.08
487.047	0.08
487.308	0.09
487.568	0.09
487.829	0.08
488.09	0.09
488.351	0.09
488.611	0.09
488.872	0.09
489.133	0.09
489.394	0.09
489.654	0.09
489.915	0.09
490.176	0.09
490.436	0.09
490.697	0.09
490.958	0.08
491.218	0.08
491.479	0.08
491.74	0.08
492	0.07
492.261	0.07
492.521	0.07
492.782	0.07
493.043	0.07
493.303	0.06
493.564	0.07
493.824	0.07
494.085	0.06
494.346	0.06
494.606	0.06
494.867	0.06
495.127	0.06
495.388	0.06
495.648	0.06
495.909	0.06
496.169	0.05
496.43	0.05
496.69	0.06
496.951	0.05
497.211	0.05
497.471	0.05
497.732	0.05
497.992	0.05
498.253	0.04
498.513	0.04
498.774	0.04
499.034	0.04
499.294	0.03
499.555	0.03
499.815	0.03
500.075	0.03
500.336	0.03
500.596	0.03
500.857	0.03
501.117	0.03
501.377	0.03
501.637	0.03
501.898	0.04
502.158	0.03
502.418	0.03
502.679	0.03
502.939	0.03
503.199	0.02
503.459	0.02
503.72	0.02
503.98	0.02
504.24	0.02
504.5	0.02
504.76	0.02
505.021	0.02
505.281	0.02
505.541	0.02
505.801	0.02
506.061	0.02
506.321	0.02
506.582	0.02
506.842	0.02
507.102	0.02
507.362	0.02
507.622	0.02
507.882	0.02
508.142	0.02
508.402	0.02
508.662	0.02
508.923	0.02
509.183	0.02
509.443	0.02
509.703	0.02
509.963	0.02
510.223	0.02
510.483	0.02
510.743	0.02
511.003	0.01
511.263	0.02
511.523	0.02
511.783	0.01
512.043	0.01
512.303	0.02
512.562	0.02
512.822	0.02
513.082	0.02
513.342	0.02
513.602	0.02
513.862	0.02
514.122	0.02
514.382	0.02
514.642	0.02
514.901	0.02
515.161	0.02
515.421	0.02
515.681	0.02
515.941	0.01
516.201	0.01
516.46	0.01
516.72	0.02
516.98	0.01
517.24	0.01
517.5	0.01
517.759	0.02
518.019	0.01
518.279	0.01
518.539	0.02
518.798	0.02
519.058	0.02
519.318	0.02
519.577	0.02
519.837	0.02
520.097	0.02
520.357	0.02
520.616	0.02
520.876	0.02
521.135	0.02
521.395	0.02
521.655	0.03
521.914	0.02
522.174	0.02
522.434	0.02
522.693	0.02
522.953	0.02
523.212	0.02
523.472	0.02
523.731	0.03
523.991	0.02
524.251	0.02
524.51	0.02
524.77	0.02
525.029	0.02
525.289	0.02
525.548	0.02
525.808	0.02
526.067	0.02
526.327	0.01
526.586	0.01
526.846	0.02
527.105	0.02
527.364	0.01
527.624	0.01
527.883	0.02
528.143	0.02
528.402	0.01
528.661	0.02
528.921	0.02
529.18	0.02
529.44	0.02
529.699	0.02
529.958	0.02
530.218	0.02
530.477	0.02
530.736	0.02
530.996	0.03
531.255	0.02
531.514	0.02
531.773	0.02
532.033	0.03
532.292	0.03
532.551	0.02
532.81	0.02
533.07	0.03
533.329	0.03
533.588	0.02
533.847	0.03
534.107	0.03
534.366	0.03
534.625	0.03
534.884	0.03
535.143	0.03
535.403	0.03
535.662	0.03
535.921	0.03
536.18	0.04
536.439	0.03
536.698	0.03
536.957	0.03
537.216	0.04
537.475	0.04
537.735	0.04
537.994	0.04
538.253	0.05
538.512	0.05
538.771	0.05
539.03	0.05
539.289	0.07
539.548	0.08
539.807	0.08
540.066	0.09
540.325	0.1
540.584	0.12
540.843	0.13
541.102	0.14
541.361	0.17
541.62	0.19
541.879	0.21
542.138	0.23
542.397	0.26
542.655	0.28
542.914	0.29
543.173	0.31
543.432	0.33
543.691	0.34
543.95	0.34
544.209	0.35
544.468	0.35
544.726	0.35
544.985	0.34
545.244	0.34
545.503	0.34
545.762	0.33
546.02	0.32
546.279	0.3
546.538	0.29
546.797	0.27
547.056	0.25
547.314	0.23
547.573	0.21
547.832	0.2
548.091	0.17
548.349	0.16
548.608	0.15
548.867	0.13
549.125	0.12
549.384	0.11
549.643	0.11
549.901	0.11
550.16	0.1
550.419	0.1
550.677	0.1
550.936	0.1
551.195	0.09
551.453	0.09
551.712	0.09
551.97	0.09
552.229	0.08
552.488	0.08
552.746	0.08
553.005	0.08
553.263	0.07
553.522	0.07
553.78	0.07
554.039	0.06
554.297	0.06
554.556	0.05
554.814	0.05
555.073	0.05
555.331	0.04
555.59	0.04
555.848	0.04
556.107	0.03
556.365	0.03
556.623	0.03
556.882	0.03
557.14	0.03
557.399	0.02
557.657	0.02
557.916	0.03
558.174	0.03
558.432	0.02
558.691	0.02
558.949	0.03
559.207	0.03
559.466	0.02
559.724	0.02
559.982	0.03
560.241	0.03
560.499	0.02
560.757	0.02
561.015	0.02
561.274	0.02
561.532	0.02
561.79	0.02
562.048	0.02
562.307	0.02
562.565	0.02
562.823	0.02
563.081	0.02
563.34	0.02
563.598	0.02
563.856	0.02
564.114	0.03
564.372	0.03
564.63	0.02
564.889	0.02
565.147	0.03
565.405	0.03
565.663	0.02
565.921	0.02
566.179	0.03
566.437	0.02
566.695	0.02
566.953	0.02
567.211	0.02
567.47	0.02
567.728	0.01
567.986	0.01
568.244	0.02
568.502	0.02
568.76	0.01
569.018	0.02
569.276	0.02
569.534	0.02
569.792	0.02
570.05	0.02
570.308	0.02
570.566	0.02
570.823	0.02
571.081	0.02
571.339	0.02
571.597	0.02
571.855	0.02
572.113	0.02
572.371	0.02
572.629	0.02
572.887	0.02
573.145	0.02
573.402	0.03
573.66	0.03
573.918	0.02
574.176	0.02
574.434	0.03
574.691	0.03
574.949	0.03
575.207	0.03
575.465	0.03
575.723	0.03
575.98	0.03
576.238	0.03
576.496	0.04
576.754	0.04
577.011	0.03
577.269	0.04
577.527	0.04
577.784	0.04
578.042	0.04
578.3	0.04
578.557	0.05
578.815	0.05
579.073	0.05
579.33	0.05
579.588	0.06
579.846	0.07
580.103	0.06
580.361	0.06
580.619	0.07
580.876	0.07
581.134	0.07
581.391	0.07
581.649	0.07
581.906	0.07
582.164	0.07
582.421	0.07
582.679	0.08
582.937	0.08
583.194	0.08
583.452	0.09
583.709	0.09
583.966	0.1
584.224	0.09
584.481	0.09
584.739	0.1
584.996	0.09
585.254	0.09
585.511	0.09
585.769	0.09
586.026	0.09
586.283	0.08
586.541	0.09
586.798	0.09
587.056	0.1
587.313	0.1
587.57	0.1
587.828	0.1
588.085	0.1
588.342	0.1
588.6	0.1
588.857	0.1
589.114	0.09
589.372	0.08
589.629	0.08
589.886	0.08
590.143	0.07
590.401	0.06
590.658	0.06
590.915	0.06
591.172	0.07
591.43	0.06
591.687	0.06
591.944	0.06
592.201	0.07
592.458	0.06
592.715	0.06
592.973	0.06
593.23	0.07
593.487	0.06
593.744	0.06
594.001	0.06
594.258	0.06
594.515	0.05
594.773	0.05
595.03	0.05
595.287	0.05
595.544	0.04
595.801	0.04
596.058	0.05
596.315	0.04
596.572	0.04
596.829	0.03
597.086	0.04
597.343	0.04
597.6	0.03
597.857	0.03
598.114	0.04
598.371	0.04
598.628	0.03
598.885	0.03
599.142	0.04
599.399	0.04
599.656	0.04
599.913	0.04
600.17	0.05
600.427	0.05
600.683	0.04
600.94	0.04
601.197	0.05
601.454	0.05
601.711	0.04
601.968	0.04
602.225	0.04
602.481	0.04
602.738	0.03
602.995	0.03
603.252	0.04
603.509	0.04
603.765	0.03
604.022	0.03
604.279	0.04
604.536	0.04
604.792	0.04
605.049	0.04
605.306	0.04
605.563	0.04
605.819	0.04
606.076	0.04
606.333	0.04
606.589	0.04
606.846	0.04
607.103	0.04
607.359	0.05
607.616	0.05
607.873	0.05
608.129	0.05
608.386	0.06
608.643	0.07
608.899	0.07
609.156	0.08
609.412	0.11
609.669	0.13
609.926	0.15
610.182	0.19
610.439	0.23
610.695	0.27
610.952	0.31
611.208	0.35
611.465	0.38
611.721	0.4
611.978	0.41
612.234	0.41
612.491	0.41
612.747	0.4
613.004	0.37
613.26	0.34
613.517	0.31
613.773	0.27
614.029	0.24
614.286	0.21
614.542	0.2
614.799	0.18
615.055	0.16
615.311	0.15
615.568	0.15
615.824	0.14
616.08	0.13
616.337	0.12
616.593	0.11
616.849	0.1
617.106	0.09
617.362	0.09
617.618	0.09
617.875	0.08
618.131	0.07
618.387	0.07
618.643	0.07
618.9	0.07
619.156	0.07
619.412	0.07
619.668	0.08
619.925	0.09
620.181	0.08
620.437	0.08
620.693	0.09
620.949	0.09
621.206	0.09
621.462	0.08
621.718	0.09
621.974	0.08
622.23	0.07
622.486	0.07
622.742	0.07
622.998	0.07
623.255	0.06
623.511	0.06
623.767	0.07
624.023	0.07
624.279	0.06
624.535	0.06
624.791	0.06
625.047	0.06
625.303	0.06
625.559	0.06
625.815	0.06
626.071	0.06
626.327	0.06
626.583	0.05
626.839	0.06
627.095	0.06
627.351	0.05
627.607	0.05
627.863	0.06
628.119	0.06
628.375	0.05
628.63	0.05
628.886	0.05
629.142	0.06
629.398	0.05
629.654	0.06
629.91	0.06
630.166	0.07
630.421	0.07
630.677	0.07
630.933	0.08
631.189	0.08
631.445	0.08
631.701	0.08
631.956	0.08
632.212	0.08
632.468	0.07
632.724	0.06
632.979	0.06
633.235	0.05
633.491	0.04
633.747	0.04
634.002	0.04
634.258	0.03
634.514	0.02
634.769	0.02
635.025	0.03
635.281	0.03
635.536	0.02
635.792	0.02
636.048	0.03
636.303	0.03
636.559	0.02
636.814	0.02
637.07	0.02
637.326	0.03
637.581	0.02
637.837	0.02
638.092	0.02
638.348	0.03
638.604	0.02
638.859	0.02
639.115	0.03
639.37	0.03
639.626	0.02
639.881	0.03
640.137	0.03
640.392	0.03
640.648	0.03
640.903	0.03
641.158	0.03
641.414	0.03
641.669	0.03
641.925	0.03
642.18	0.03
642.436	0.03
642.691	0.02
642.946	0.02
643.202	0.03
643.457	0.03
643.713	0.02
643.968	0.02
644.223	0.03
644.479	0.03
644.734	0.02
644.989	0.02
645.244	0.02
645.5	0.02
645.755	0.02
646.01	0.02
646.266	0.02
646.521	0.02
646.776	0.02
647.031	0.02
647.287	0.02
647.542	0.03
647.797	0.02
648.052	0.02
648.307	0.03
648.563	0.03
648.818	0.02
649.073	0.03
649.328	0.03
649.583	0.04
649.838	0.03
650.094	0.03
650.349	0.04
650.604	0.04
650.859	0.03
651.114	0.03
651.369	0.04
651.624	0.04
651.879	0.04
652.134	0.04
652.389	0.04
652.644	0.04
652.899	0.03
653.154	0.03
653.409	0.04
653.664	0.04
653.919	0.03
654.174	0.03
654.429	0.03
654.684	0.03
654.939	0.02
655.194	0.02
655.449	0.03
655.704	0.03
655.959	0.03
656.214	0.02
656.469	0.03
656.724	0.03
656.979	0.02
657.234	0.02
657.488	0.03
657.743	0.03
657.998	0.02
658.253	0.03
658.508	0.03
658.763	0.03
659.017	0.03
659.272	0.03
659.527	0.03
659.782	0.03
660.037	0.02
660.291	0.02
660.546	0.03
660.801	0.03
661.056	0.02
661.31	0.02
661.565	0.02
661.82	0.03
662.074	0.02
662.329	0.03
662.584	0.03
662.838	0.03
663.093	0.02
663.348	0.02
663.602	0.03
663.857	0.03
664.112	0.02
664.366	0.02
664.621	0.03
664.876	0.03
665.13	0.02
665.385	0.02
665.639	0.02
665.894	0.02
666.148	0.02
666.403	0.02
666.657	0.02
666.912	0.02
667.166	0.02
667.421	0.02
667.675	0.03
667.93	0.03
668.184	0.02
668.439	0.02
668.693	0.03
668.948	0.03
669.202	0.02
669.457	0.03
669.711	0.03
669.966	0.04
670.22	0.03
670.474	0.03
670.729	0.03
670.983	0.03
671.237	0.03
671.492	0.03
671.746	0.04
672.001	0.04
672.255	0.03
672.509	0.03
672.763	0.04
673.018	0.04
673.272	0.03
673.526	0.03
673.781	0.03
674.035	0.03
674.289	0.02
674.543	0.02
674.798	0.03
675.052	0.02
675.306	0.02
675.56	0.02
675.814	0.02
676.069	0.02
676.323	0.01
676.577	0.01
676.831	0.02
677.085	0.02
677.339	0.02
677.594	0.02
677.848	0.02
678.102	0.02
678.356	0.02
678.61	0.02
678.864	0.03
679.118	0.03
679.372	0.03
679.626	0.03
679.88	0.03
680.134	0.03
680.388	0.03
680.643	0.03
680.897	0.03
681.151	0.04
681.405	0.03
681.659	0.03
681.912	0.03
682.166	0.03
682.42	0.02
682.674	0.02
682.928	0.03
683.182	0.03
683.436	0.02
683.69	0.02
683.944	0.02
684.198	0.03
684.452	0.02
684.706	0.02
684.959	0.03
685.213	0.03
685.467	0.02
685.721	0.02
685.975	0.03
686.229	0.03
686.482	0.03
686.736	0.03
686.99	0.04
687.244	0.04
687.498	0.03
687.751	0.03
688.005	0.04
688.259	0.04
688.513	0.04
688.766	0.04
689.02	0.04
689.274	0.04
689.527	0.03
689.781	0.03
690.035	0.03
690.289	0.03
690.542	0.03
690.796	0.03
691.049	0.03
691.303	0.03
691.557	0.03
691.81	0.03
692.064	0.03
692.318	0.03
692.571	0.03
692.825	0.03
693.078	0.03
693.332	0.04
693.585	0.03
693.839	0.02
694.092	0.03
694.346	0.02
694.599	0.02
694.853	0.02
695.106	0.02
695.36	0.02
695.613	0.02
695.867	0.02
696.12	0.02
696.374	0.03
696.627	0.02
696.881	0.02
697.134	0.03
697.387	0.03
697.641	0.02
697.894	0.02
698.148	0.03
698.401	0.03
698.654	0.02
698.908	0.02
699.161	0.02
699.414	0.03
699.668	0.03
699.921	0.02
700.174	0.03
700.428	0.03
700.681	0.03
700.934	0.03
701.188	0.03
701.441	0.03
701.694	0.03
701.947	0.03
702.2	0.04
702.454	0.03
702.707	0.03
702.96	0.03
703.213	0.04
703.467	0.03
703.72	0.03
703.973	0.03
704.226	0.03
704.479	0.03
704.732	0.03
704.985	0.03
705.239	0.04
705.492	0.04
705.745	0.03
705.998	0.04
706.251	0.05
706.504	0.05
706.757	0.05
707.01	0.05
707.263	0.05
707.516	0.05
707.769	0.05
708.022	0.05
708.275	0.06
708.528	0.07
708.781	0.06
709.034	0.06
709.287	0.07
709.54	0.06
709.793	0.06
710.046	0.06
710.299	0.06
710.552	0.06
710.805	0.06
711.058	0.05
711.311	0.06
711.563	0.05
711.816	0.04
712.069	0.04
712.322	0.05
712.575	0.05
712.828	0.05
713.081	0.05
713.333	0.05
713.586	0.05
713.839	0.04
714.092	0.03
714.345	0.03
714.597	0.04
714.85	0.03
715.103	0.03
715.356	0.03
715.608	0.03
715.861	0.02
716.114	0.02
716.367	0.03
716.619	0.03
716.872	0.03
717.125	0.03
717.377	0.03
717.63	0.03
717.883	0.03
718.135	0.03
718.388	0.04
718.64	0.03
718.893	0.03
719.146	0.03
719.398	0.03
719.651	0.03
719.903	0.02
720.156	0.02
720.409	0.03
720.661	0.03
720.914	0.02
721.166	0.02
721.419	0.02
721.671	0.03
721.924	0.02
722.176	0.02
722.429	0.02
722.681	0.03
722.934	0.02
723.186	0.02
723.438	0.03
723.691	0.02
723.943	0.03
724.196	0.03
724.448	0.03
724.701	0.03
724.953	0.03
725.205	0.03
725.458	0.03
725.71	0.03
725.962	0.02
726.215	0.02
726.467	0.02
726.719	0.02
726.972	0.01
727.224	0.01
727.476	0.02
727.729	0.01
727.981	0.01
728.233	0.01
728.485	0.02
728.738	0.02
728.99	0.01
729.242	0.01
729.494	0.02
729.746	0.02
729.999	0.02
730.251	0.02
730.503	0.02
730.755	0.03
731.007	0.02
731.26	0.02
731.512	0.03
731.764	0.03
732.016	0.02
732.268	0.02
732.52	0.03
732.772	0.03
733.024	0.02
733.276	0.01
733.528	0.02
733.781	0.02
734.033	0.02
734.285	0.02
734.537	0.02
734.789	0.03
735.041	0.02
735.293	0.02
735.545	0.03
735.797	0.03
736.049	0.03
736.301	0.03
736.553	0.04
736.804	0.04
737.056	0.03
737.308	0.04
737.56	0.04
737.812	0.05
738.064	0.04
738.316	0.04
738.568	0.05
738.82	0.04
739.072	0.04
739.323	0.04
739.575	0.04
739.827	0.04
740.079	0.03
740.331	0.03
740.582	0.04
740.834	0.04
741.086	0.04
741.338	0.03
741.59	0.04
741.841	0.04
742.093	0.04
742.345	0.04
742.597	0.04
742.848	0.04
743.1	0.04
743.352	0.03
743.603	0.04
743.855	0.04
744.107	0.04
744.358	0.03
744.61	0.03
744.862	0.03
745.113	0.03
745.365	0.03
745.617	0.03
745.868	0.03
746.12	0.03
746.371	0.03
746.623	0.03
746.874	0.03
747.126	0.03
747.378	0.03
747.629	0.03
747.881	0.03
748.132	0.03
748.384	0.03
748.635	0.03
748.887	0.03
749.138	0.03
749.39	0.03
749.641	0.04
749.892	0.04
750.144	0.04
750.395	0.05
750.647	0.05
750.898	0.05
751.15	0.05
751.401	0.05
751.652	0.05
751.904	0.05
752.155	0.04
752.406	0.04
752.658	0.04
752.909	0.04
753.16	0.04
753.412	0.03
753.663	0.04
753.914	0.04
754.166	0.04
754.417	0.04
754.668	0.05
754.919	0.04
755.171	0.04
755.422	0.04
755.673	0.05
755.924	0.04
756.176	0.05
756.427	0.05
756.678	0.05
756.929	0.05
757.18	0.05
757.432	0.04
757.683	0.06
757.934	0.06
758.185	0.05
758.436	0.04
758.687	0.04
758.938	0.04
759.189	0.03
759.441	0.03
759.692	0.04
759.943	0.03
760.194	0.03
760.445	0.03
760.696	0.04
760.947	0.04
761.198	0.03
761.449	0.03
761.7	0.04
761.951	0.03
762.202	0.02
762.453	0.02
762.704	0.03
762.955	0.03
763.206	0.02
763.457	0.02
763.708	0.02
763.959	0.03
764.209	0.03
764.46	0.03
764.711	0.04
764.962	0.04
765.213	0.03
765.464	0.03
765.715	0.04
765.966	0.04
766.216	0.03
766.467	0.03
766.718	0.04
766.969	0.03
767.22	0.02
767.47	0.02
767.721	0.04
767.972	0.04
768.223	0.03
768.473	0.03
768.724	0.03
768.975	0.03
769.226	0.03
769.476	0.03
769.727	0.04
769.978	0.03
770.228	0.03
770.479	0.02
770.73	0.03
770.98	0.03
771.231	0.02
771.482	0.03
771.732	0.04
771.983	0.03
772.233	0.03
772.484	0.02
772.735	0.04
772.985	0.03
773.236	0.02
773.486	0.02
773.737	0.03
773.987	0.03
774.238	0.02
774.488	0.02
774.739	0.03
774.989	0.03
775.24	0.03
775.49	0.03
775.741	0.04
775.991	0.04
776.242	0.03
776.492	0.02
776.743	0.04
776.993	0.03
777.244	0.02
777.494	0.02
777.744	0.03
777.995	0.01
778.245	0.01
778.495	0
778.746	0.01
778.996	0.02
779.246	0.02
779.497	0.01
779.747	0.03
779.997	0.04
780.248	0.03
780.498	0.03
780.748	0.05
780.999	0.05
781.249	0.04
781.499	0.04
781.749	0.05
782	0.04
782.25	0.04
782.5	0.03
782.75	0.03
783	0.03
783.251	0.03
783.501	0.03
783.751	0.03
784.001	0.03
784.251	0.02
784.501	0.02
784.751	0.04
785.002	0.04
785.252	0.04
785.502	0.03
785.752	0.04
786.002	0.05
786.252	0.04
786.502	0.04
786.752	0.06
787.002	0.05
787.252	0.03
787.502	0.04
787.752	0.04
788.002	0.04
788.252	0.03
788.502	0.02
788.752	0.03
789.002	0.03
789.252	0.02
789.502	0.02
789.752	0.03
790.002	0.04
790.252	0.03
790.502	0.03
790.752	0.05
791.001	0.05
791.251	0.04
791.501	0.05
791.751	0.06
792.001	0.06
792.251	0.05
792.501	0.05
792.75	0.06
793	0.05
793.25	0.05
793.5	0.03
793.749	0.05
793.999	0.05
794.249	0.03
794.499	0.04
794.749	0.04
794.998	0.05
795.248	0.04
795.498	0.05
795.747	0.06
795.997	0.06
796.247	0.06
796.496	0.06
796.746	0.07
796.996	0.07
797.245	0.07
797.495	0.07
797.745	0.07
797.994	0.06
798.244	0.06
798.493	0.06
798.743	0.06
798.993	0.06
799.242	0.05
799.492	0.05
799.741	0.06
799.991	0.06
800.24	0.05
800.49	0.05
800.739	0.06
800.989	0.06
801.238	0.06
801.488	0.06
801.737	0.07
801.987	0.08
802.236	0.06
802.486	0.07
802.735	0.08
802.985	0.08
803.234	0.07
803.483	0.08
803.733	0.08
803.982	0.07
804.231	0.06
804.481	0.05
804.73	0.05
804.98	0.06
805.229	0.05
805.478	0.05
805.728	0.06
805.977	0.06
806.226	0.04
806.475	0.03
806.725	0.05
806.974	0.05
807.223	0.04
807.472	0.04
807.722	0.05
807.971	0.05
808.22	0.03
808.469	0.03
808.719	0.03
808.968	0.03
809.217	0.04
809.466	0.03
809.715	0.04
809.964	0.04
810.214	0.03
810.463	0.03
810.712	0.04
810.961	0.05
811.21	0.04
811.459	0.05
811.708	0.07
811.957	0.06
812.206	0.06
812.455	0.05
812.704	0.07
812.953	0.07
813.202	0.05
813.451	0.05
813.7	0.07
813.949	0.06
814.198	0.07
814.447	0.07
814.696	0.08
814.945	0.08
815.194	0.08
815.443	0.08
815.692	0.07
815.941	0.06
816.19	0.05
816.439	0.05
816.688	0.06
816.937	0.05
817.186	0.03
817.434	0.03
817.683	0.04
817.932	0.03
818.181	0.01
818.43	0.03
818.679	0.05
818.927	0.06
819.176	0.05
819.425	0.04
819.674	0.05
819.922	0.04
820.171	0.03
820.42	0.04
820.669	0.06
820.917	0.06
821.166	0.05
821.415	0.04
821.664	0.05
821.912	0.05
822.161	0.05
822.41	0.05
822.658	0.08
822.907	0.07
823.156	0.04
823.404	0.06
823.653	0.08
823.901	0.08
824.15	0.08
824.399	0.07
824.647	0.09
824.896	0.08
825.144	0.08
825.393	0.09
825.641	0.12
825.89	0.13
826.138	0.12
826.387	0.12
826.635	0.12
826.884	0.12
827.132	0.1
827.381	0.09
827.629	0.09
827.878	0.09
828.126	0.06
828.375	0.05
828.623	0.06
828.872	0.05
829.12	0.05
829.368	0.05
829.617	0.06
829.865	0.07
830.113	0.06
830.362	0.06
830.61	0.07
830.858	0.08
831.107	0.09
831.355	0.08
831.603	0.1
831.852	0.1
832.1	0.09
832.348	0.09
832.597	0.1
832.845	0.11
833.093	0.1
833.341	0.1
833.59	0.11
833.838	0.09
834.086	0.07
834.334	0.06
834.582	0.07
834.831	0.07
835.079	0.04
835.327	0.05
835.575	0.06
835.823	0.05
836.071	0.03
836.319	0.03
836.568	0.06
836.816	0.05
837.064	0.05
837.312	0.04
837.56	0.06
837.808	0.07
838.056	0.06
838.304	0.06
838.552	0.08
838.8	0.08
839.048	0.05
839.296	0.06
839.544	0.1
839.792	0.09
840.04	0.09
840.288	0.09
840.536	0.11
840.784	0.11
841.032	0.09
841.28	0.11
841.528	0.12
841.776	0.13
842.024	0.1
842.271	0.09
842.519	0.11
842.767	0.1
843.015	0.08
843.263	0.07
843.511	0.09
843.759	0.09
844.006	0.06
844.254	0.05
844.502	0.05
844.75	0.05
844.998	0.04
845.245	0.04
845.493	0.04
845.741	0.05
845.989	0.05
846.236	0.05
846.484	0.07
846.732	0.06
846.979	0.05
847.227	0.06
847.475	0.06
847.722	0.06
847.97	0.05
848.218	0.06
848.465	0.07
848.713	0.05
848.961	0.04
849.208	0.03
849.456	0.06
849.703	0.06
849.951	0.05
850.199	0.08
850.446	0.11
850.694	0.11
850.941	0.07
851.189	0.08
851.436	0.09
851.684	0.09
851.931	0.09
852.179	0.09
852.426	0.1
852.674	0.1
852.921	0.07
853.169	0.06
853.416	0.06
853.664	0.07
853.911	0.04
854.159	0.04
854.406	0.07
854.653	0.05
854.901	0.03
855.148	0.05
855.395	0.07
855.643	0.08
855.89	0.05
856.138	0.06
856.385	0.08
856.632	0.11
856.879	0.1
857.127	0.09
857.374	0.11
857.621	0.09
857.869	0.08
858.116	0.09
858.363	0.1
858.61	0.1
858.858	0.07
859.105	0.08
859.352	0.09
859.599	0.08
859.846	0.04
860.094	0.05
860.341	0.07
860.588	0.07
860.835	0.03
861.082	0.04
861.329	0.06
861.576	0.09
861.824	0.07
862.071	0.08
862.318	0.09
862.565	0.1
862.812	0.08
863.059	0.08
863.306	0.11
863.553	0.11
863.8	0.08
864.047	0.08
864.294	0.09
864.541	0.07
864.788	0.05
865.035	0.07
865.282	0.09
865.529	0.09
865.776	0.07
866.023	0.08
866.27	0.1
866.517	0.11
866.764	0.11
867.011	0.11
867.258	0.15
867.505	0.14
867.751	0.1
867.998	0.09
868.245	0.12
868.492	0.11
868.739	0.09
868.986	0.09
869.232	0.1
869.479	0.08
869.726	0.07
869.973	0.05
870.22	0.08
870.466	0.1
870.713	0.07
870.96	0.07
871.207	0.11
871.453	0.12
871.7	0.12
871.947	0.12
872.193	0.14
872.44	0.14
872.687	0.14
872.934	0.14
873.18	0.14
873.427	0.14
873.673	0.12
873.92	0.13
874.167	0.15
874.413	0.14
874.66	0.1
874.907	0.11
875.153	0.11
875.4	0.1
875.646	0.07
875.893	0.09
876.139	0.13
876.386	0.13
876.632	0.07
876.879	0.07
877.125	0.08
877.372	0.08
877.618	0.06
877.865	0.09
878.111	0.11
878.358	0.13
878.604	0.11
878.851	0.12
879.097	0.13
879.344	0.14
879.59	0.13
879.836	0.12
880.083	0.14
880.329	0.11
880.575	0.1
880.822	0.1
881.068	0.12
881.314	0.1
881.561	0.08
881.807	0.12
882.053	0.15
882.3	0.15
882.546	0.15
882.792	0.16
883.039	0.2
883.285	0.19
883.531	0.17
883.777	0.15
884.023	0.17
884.27	0.17
884.516	0.11
884.762	0.11
885.008	0.14
885.254	0.11
885.501	0.08
885.747	0.1
885.993	0.11
886.239	0.11
886.485	0.1
886.731	0.09
886.977	0.11
887.224	0.11
887.47	0.07
887.716	0.08
887.962	0.13
888.208	0.13
888.454	0.1
888.7	0.12
888.946	0.14
889.192	0.14
889.438	0.15
889.684	0.16
889.93	0.17
890.176	0.19
890.422	0.15
890.668	0.16
890.914	0.2
891.16	0.22
891.406	0.18
891.652	0.19
891.898	0.22
892.143	0.21
892.389	0.17
892.635	0.18
892.881	0.2
893.127	0.19
893.373	0.17
893.619	0.14
893.864	0.14
894.11	0.12
894.356	0.11
894.602	0.09
894.848	0.13
895.093	0.15
895.339	0.13
895.585	0.14
895.831	0.2
896.076	0.18
896.322	0.16
896.568	0.18
896.814	0.21
897.059	0.19
897.305	0.17
897.551	0.16
897.796	0.16
898.042	0.16
898.288	0.11
898.533	0.08
898.779	0.13
899.025	0.12
899.27	0.1
899.516	0.12
899.761	0.16
900.007	0.16
900.253	0.13
900.498	0.14
900.744	0.18
900.989	0.2
901.235	0.18
901.48	0.17
901.726	0.2
901.971	0.21
902.217	0.18
902.462	0.16
902.708	0.19
902.953	0.18
903.199	0.13
903.444	0.12
903.689	0.14
903.935	0.15
904.18	0.08
904.426	0.09
904.671	0.13
904.916	0.13
905.162	0.1
905.407	0.12
905.653	0.18
905.898	0.18
906.143	0.16
906.389	0.15
906.634	0.18
906.879	0.22
907.124	0.18
907.37	0.16
907.615	0.17
907.86	0.2
908.106	0.16
908.351	0.17
908.596	0.2
908.841	0.18
909.086	0.14
909.332	0.09
909.577	0.14
909.822	0.14
910.067	0.14
910.312	0.17
910.558	0.2
910.803	0.21
911.048	0.14
911.293	0.14
911.538	0.18
911.783	0.19
912.028	0.18
912.273	0.15
912.518	0.16
912.763	0.13
913.009	0.08
913.254	0.09
913.499	0.1
913.744	0.09
913.989	0.02
914.234	0.05
914.479	0.12
914.724	0.15
914.969	0.11
915.214	0.11
915.459	0.14
915.703	0.14
915.948	0.1
916.193	0.13
916.438	0.16
916.683	0.2
916.928	0.11
917.173	0.1
917.418	0.12
917.663	0.15
917.907	0.14
918.152	0.16
918.397	0.19
918.642	0.13
918.887	0.06
919.132	0.07
919.376	0.14
919.621	0.19
919.866	0.13
920.111	0.07
920.355	0.11
920.6	0.11
920.845	0.01
921.09	0.01
921.334	0.09
921.579	0.1
921.824	0.1
922.068	0.09
922.313	0.12
922.558	0.11
922.802	0.11
923.047	0.13
923.292	0.19
923.536	0.19
923.781	0.17
924.026	0.21
924.27	0.26
924.515	0.24
924.759	0.2
925.004	0.18
925.248	0.26
925.493	0.28
925.738	0.21
925.982	0.16
926.227	0.27
926.471	0.24
926.716	0.15
926.96	0.16
927.205	0.21
927.449	0.18
927.693	0.1
927.938	0.12
928.182	0.16
928.427	0.19
928.671	0.14
928.916	0.11
929.16	0.2
929.404	0.22
929.649	0.16
929.893	0.17
930.137	0.21
930.382	0.24
930.626	0.17
930.87	0.18
931.115	0.24
931.359	0.26
931.603	0.18
931.848	0.19
932.092	0.24
932.336	0.25
932.58	0.18
932.825	0.21
933.069	0.31
933.313	0.27
933.557	0.17
933.802	0.15
934.046	0.21
934.29	0.21
934.534	0.12
934.778	0.11
935.022	0.18
935.267	0.16
935.511	0.14
935.755	0.13
935.999	0.26
936.243	0.26
936.487	0.23
936.731	0.27
936.975	0.37
937.219	0.39
937.463	0.39
937.707	0.39
937.951	0.47
938.195	0.43
938.439	0.31
938.683	0.32
938.927	0.42
939.171	0.41
939.415	0.27
939.659	0.23
939.903	0.34
940.147	0.26
940.391	0.14
940.635	0.2
940.879	0.28
941.123	0.32
941.367	0.19
941.611	0.21
941.855	0.3
942.098	0.34
942.342	0.26
942.586	0.23
942.83	0.3
943.074	0.23
943.318	0.06
943.561	-0.02
943.805	0.13
944.049	0.21
944.293	0.12
944.536	0.09
944.78	0.21
945.024	0.22
945.268	0.12
945.511	0.15
945.755	0.34
945.999	0.39
946.243	0.34
946.486	0.34
946.73	0.33
946.974	0.31
947.217	0.19
947.461	0.08
947.704	0.18
947.948	0.17
948.192	0.05
948.435	0.09
948.679	0.21
948.922	0.18
949.166	0
949.41	0.08
949.653	0.17
949.897	0.21
950.14	0.11
950.384	0.15
950.627	0.26
950.871	0.3
951.114	0.17
951.358	0.17
951.601	0.35
951.845	0.42
952.088	0.24
952.331	0.24
952.575	0.38
952.818	0.49
953.062	0.37
953.305	0.41
953.548	0.46
953.792	0.51
954.035	0.36
954.279	0.32
954.522	0.44
954.765	0.5
955.009	0.38
955.252	0.34
955.495	0.39
955.739	0.35
955.982	0.18
956.225	0.26
956.468	0.29
956.712	0.35
956.955	0.27
957.198	0.25
957.441	0.39
957.685	0.42
957.928	0.31
958.171	0.33
958.414	0.5
958.657	0.48
958.9	0.37
959.144	0.45
959.387	0.55
959.63	0.54
959.873	0.35
960.116	0.32
960.359	0.39
960.602	0.37
960.845	0.25
961.088	0.27
961.332	0.42
961.575	0.41
961.818	0.25
962.061	0.26
962.304	0.38
962.547	0.42
962.79	0.35
963.033	0.37
963.276	0.52
963.519	0.53
963.762	0.35
964.005	0.3
964.247	0.41
964.49	0.37
964.733	0.28
964.976	0.3
965.219	0.47
965.462	0.34
965.705	0.21
965.948	0.16
966.191	0.34
966.433	0.37
966.676	0.22
966.919	0.27
967.162	0.44
967.405	0.44
967.648	0.21
967.89	0.19
968.133	0.46
968.376	0.38
968.619	0.25
968.861	0.24
969.104	0.39
969.347	0.45
969.59	0.29
969.832	0.31
970.075	0.4
970.318	0.52
970.56	0.37
970.803	0.31
971.046	0.55
971.288	0.61
971.531	0.42
971.774	0.4
972.016	0.59
972.259	0.6
972.501	0.48
972.744	0.49
972.987	0.6
973.229	0.61
973.472	0.45
973.714	0.44
973.957	0.56
974.199	0.6
974.442	0.46
974.684	0.4
974.927	0.53
975.169	0.51
975.412	0.4
975.654	0.36
975.897	0.55
976.139	0.64
976.382	0.52
976.624	0.53
976.866	0.71
977.109	0.77
977.351	0.64
977.594	0.71
977.836	0.86
978.078	0.93
978.321	0.79
978.563	0.77
978.805	0.8
979.048	0.81
979.29	0.68
979.532	0.61
979.775	0.75
980.017	0.75
980.259	0.48
980.501	0.48
980.744	0.54
980.986	0.59
981.228	0.45
981.47	0.56
981.713	0.78
981.955	0.74
982.197	0.61
982.439	0.68
982.681	0.81
982.923	0.88
983.166	0.68
983.408	0.72
983.65	0.85
983.892	0.81
984.134	0.61
984.376	0.54
984.618	0.74
984.86	0.76
985.102	0.48
985.344	0.61
985.587	0.88
985.829	0.92
986.071	0.76
986.313	0.82
986.555	1.03
986.797	1.14
987.039	1.01
987.281	1.03
987.523	1.19
987.764	1.27
988.006	0.92
988.248	0.78
988.49	0.91
988.732	0.92
988.974	0.75
989.216	0.77
989.458	0.8
989.7	0.76
989.942	0.6
990.183	0.58
990.425	0.69
990.667	0.78
990.909	0.65
991.151	0.74
991.393	0.82
991.634	0.8
991.876	0.6
992.118	0.65
992.36	0.8
992.601	0.87
992.843	0.66
993.085	0.66
993.327	1.03
993.568	1.03
993.81	0.78
994.052	0.87
994.293	1.05
994.535	1.05
994.777	0.87
995.018	0.91
995.26	1.04
995.502	1.08
995.743	0.9
995.985	0.78
996.226	1.03
996.468	1.13
996.71	1.02
996.951	0.95
997.193	1.23
997.434	1.38
997.676	1.1
997.917	1.15
998.159	1.29
998.4	1.23
998.642	1.12
998.883	1.06
999.125	1.24
999.366	1.13
999.608	0.98
999.849	0.88
1000.091	1.07
1000.332	1.15
1000.573	0.79
1000.815	0.92
1001.056	1.2
1001.298	1.01
1001.539	0.82
1001.78	0.83
1002.022	1.11
1002.263	1.07
1002.504	0.79
1002.746	0.69
1002.987	0.97
1003.228	0.98
1003.47	0.78
1003.711	0.78
1003.952	1.09
1004.193	1.12
1004.435	0.87
1004.676	0.87
1004.917	1.2
1005.158	1.22
1005.399	1.06
1005.641	1.1
1005.882	1.53
1006.123	1.57
1006.364	1.27
1006.605	1.31
1006.847	1.53
1007.088	1.48
1007.329	1.25
1007.57	1.18
1007.811	1.51
1008.052	1.28
1008.293	0.97
1008.534	0.79
1008.775	0.97
1009.016	1.1
1009.257	0.94
1009.498	0.95
1009.739	1.15
1009.98	1.06
1010.221	0.83
1010.462	0.78
1010.703	1.28
1010.944	1.11
1011.185	1.01
1011.426	1.06
1011.667	1.19
1011.908	0.99
1012.149	0.55
1012.39	0.7
1012.631	1.09
1012.872	1.21
1013.113	0.94
1013.354	0.81
1013.594	1.3
1013.835	1.09
1014.076	0.76
1014.317	0.83
1014.558	1.11
1014.799	1.1
1015.039	0.79
1015.28	0.8
1015.521	1.01
1015.762	1.09
1016.002	0.88
1016.243	0.6
1016.484	1.01
1016.725	1.34
1016.965	1.08
1017.206	1.16
1017.447	1.69
1017.687	1.66
1017.928	1.35
1018.169	1.29
1018.409	1.54
1018.65	1.62
1018.891	1.61
1019.131	1.6
1019.372	1.62
1019.612	1.67
1019.853	1.4
1020.094	1.26
1020.334	1.57
1020.575	1.46
1020.815	1.24
1021.056	1.23
1021.296	1.32
1021.537	1.29
1021.777	0.95
1022.018	0.85
1022.258	1.03
1022.499	1.06
1022.739	0.74
1022.98	0.7
1023.22	0.98
1023.461	0.98
1023.701	0.63
1023.942	0.86
1024.182	1.31
1024.422	1.28
1024.663	0.95
1024.903	1.19
1025.143	1.44
1025.384	1.71
1025.624	1.36
1025.864	1.53
1026.105	1.6
1026.345	1.6
1026.585	1.45
1026.826	1.33
1027.066	1.88
1027.306	2.05
1027.547	1.47
1027.787	1.56
1028.027	1.87
1028.267	2
1028.507	1.47
1028.748	1.72
1028.988	2.24
1029.228	1.9
1029.468	1.59
1029.708	1.4
1029.949	1.67
1030.189	1.76
1030.429	1.3
1030.669	1.33
1030.909	1.56
1031.149	1.79
1031.389	1.57
1031.629	1.36
1031.869	1.91
1032.109	1.86
1032.35	1.43
1032.59	1.48
1032.83	1.9
1033.07	1.84
1033.31	1.31
1033.55	1.55
1033.79	1.82
1034.03	1.65
1034.27	1.37
1034.51	1.37
1034.749	1.76
1034.989	1.63
1035.229	1.12
1035.469	0.83
1035.709	1.48
1035.949	1.48
1036.189	1.04
1036.429	1.14
1036.669	1.52
1036.909	1.49
1037.148	0.68
1037.388	0.86
1037.628	1.72
1037.868	1.76
1038.108	1.54
1038.347	1.38
1038.587	1.99
1038.827	2.15
1039.067	1.82
1039.307	2.06
1039.546	2.44
1039.786	3.12
1040.026	2.69
1040.265	2.54
1040.505	3.27
1040.745	3.61
1040.985	3.04
1041.224	2.9
1041.464	3.24
1041.703	3.06
1041.943	2.36
1042.183	2.21
1042.422	2.44
1042.662	2.21
1042.902	2.04
1043.141	1.91
1043.381	2.27
1043.62	2.68
1043.86	2.47
1044.099	2.49
1044.339	3.25
1044.578	3.58
1044.818	3.88
1045.057	3.9
1045.297	4.44
1045.536	4.56
1045.776	4.09
1046.015	4.4
1046.255	4.95
1046.494	4.73
1046.734	4.03
1046.973	3.75
1047.213	4.16
1047.452	3.42
1047.691	3.11
1047.931	3.63
1048.17	4.02
1048.409	3.76
1048.649	3.01
1048.888	2.87
1049.127	3.27
1049.367	3.35
1049.606	2.55
1049.845	2.67
1050.085	3.65
1050.324	3.4
1050.563	2.51
1050.802	2
1051.042	2.8
1051.281	2.67
1051.52	2.01
1051.759	2.42
1051.999	2.78
1052.238	3.07
1052.477	2.36
1052.716	2.2
1052.955	2.73
1053.194	2.59
1053.434	3.07
1053.673	3.16
1053.912	4.2
1054.151	4.48
1054.39	3.46
1054.629	3.81
1054.868	4.73
1055.107	4.54
1055.346	3.76
1055.585	3.83
1055.824	4.66
1056.063	4.28
1056.302	3.8
1056.541	3.48
1056.78	3.97
1057.019	4.24
1057.258	3.76
1057.497	3.07
1057.736	4.03
1057.975	3.87
1058.214	3.41
1058.453	3.58
1058.692	3.71
1058.931	3.4
1059.17	2.38
1059.409	2.68
1059.647	3.45
1059.886	3.09
1060.125	2.75
1060.364	2.72
1060.603	3.66
1060.842	3.5
1061.08	2.22
1061.319	2.46
1061.558	3.24
1061.797	3.24
1062.036	2.36
1062.274	2.23
1062.513	3.42
1062.752	3.56
1062.991	2.62
1063.229	2.48
1063.468	3.45
1063.707	3.81
1063.945	3.57
1064.184	3.63
1064.423	4.65
1064.661	4.58
1064.9	3.37
1065.139	2.98
1065.377	3.83
1065.616	4.25
1065.854	3.23
1066.093	2.59
1066.332	3.23
1066.57	2.8
1066.809	2.73
1067.047	3.08
1067.286	4.42
1067.524	4.87
1067.763	4.09
1068.001	4.24
1068.24	5.07
1068.478	5.81
1068.717	5.14
1068.955	5.64
1069.194	6.65
1069.432	5.14
1069.671	4.14
1069.909	3.81
1070.147	4.78
1070.386	4.41
1070.624	3.11
1070.863	3.14
1071.101	4.17
1071.339	4.46
1071.578	3.84
1071.816	3.53
1072.054	4.99
1072.293	4.72
1072.531	2.96
1072.769	3.09
1073.007	4.83
1073.246	5.08
1073.484	3.8
1073.722	3.86
1073.96	5.12
1074.199	4.43
1074.437	3.33
1074.675	4.21
1074.913	5.21
1075.152	5.69
1075.39	4.19
1075.628	3.59
1075.866	5.2
1076.104	5.06
1076.342	3.66
1076.58	4.26
1076.819	5.41
1077.057	5.42
1077.295	3.25
1077.533	4.08
1077.771	5.11
1078.009	5.15
1078.247	4.53
1078.485	4.06
1078.723	5.35
1078.961	5.46
1079.199	4.28
1079.437	3.93
1079.675	5.65
1079.913	6.4
1080.151	4.76
1080.389	5.44
1080.627	7.26
1080.865	6.93
1081.103	6.01
1081.341	6.47
1081.579	7.96
1081.817	6.88
1082.054	6.48
1082.292	6.12
1082.53	8.09
1082.768	7.82
1083.006	5.17
1083.244	5.19
1083.481	7.72
1083.719	7.36
1083.957	5.57
1084.195	5.65
1084.433	7.29
1084.67	7.48
1084.908	5.8
1085.146	5.66
1085.384	7.4
1085.621	8.51
1085.859	7.06
1086.097	6.27
1086.335	8.45
1086.572	7.71
1086.81	5.55
1087.048	6.27
1087.285	7.89
1087.523	7.74
1087.76	5.73
1087.998	5.32
1088.236	6.89
1088.473	6.85
1088.711	5.42
1088.948	4.86
1089.186	8.15
1089.424	8.91
1089.661	6.24
1089.899	6.54
1090.136	8.48
1090.374	8.18
1090.611	8.1
1090.849	7.77
1091.086	9.75
1091.324	10.58
1091.561	9.38
1091.799	8.9
1092.036	10.67
1092.273	11.28
1092.511	9.86
1092.748	10.5
1092.986	13.37
1093.223	12.6
1093.46	11.16
1093.698	11.4
1093.935	12.3
1094.173	11.86
1094.41	10
1094.647	10.88
1094.885	12.91
1095.122	11.63
1095.359	10.38
1095.596	11.1
1095.834	13.85
1096.071	14.43
1096.308	10.63
1096.545	11.86
1096.783	14.73
1097.02	14.69
1097.257	12.05
1097.494	12.37
1097.731	14.68
1097.969	11.92
1098.206	8.89
1098.443	8.62
1098.68	9.73
1098.917	10.49
1099.154	7.43
1099.392	6.41
1099.629	9.89
1099.866	10.6
1100.103	7.9
1100.34	8.84
1100.577	13.81
1100.814	13.39
1101.051	9.75
1101.288	11.04
1101.525	14.62
1101.762	14.01
1101.999	11.15
1102.236	10.57
1102.473	11.1
1102.71	10.69
1102.947	6.74
1103.184	7.72
1103.421	10.63
1103.658	10.44
1103.895	7.23
1104.132	7.25
1104.369	10.6
1104.605	12.64
1104.842	8.76
1105.079	9.95
1105.316	13.75
1105.553	15.94
1105.79	12.88
1106.026	10.89
1106.263	15.61
1106.5	17.02
1106.737	11.98
1106.974	12.39
1107.21	15.41
1107.447	16.21
1107.684	12.22
1107.921	11.62
1108.157	14.07
1108.394	12.75
1108.631	11.35
1108.867	11.77
1109.104	13.83
1109.341	16.53
1109.577	15.77
1109.814	15.81
1110.051	20.22
1110.287	22.58
1110.524	22.37
1110.761	22.94
1110.997	27.9
1111.234	26.2
1111.47	24.82
1111.707	26.25
1111.944	29.46
1112.18	25.68
1112.417	20.16
1112.653	19.41
1112.89	22.47
1113.126	18.73
1113.363	15.72
1113.599	14.26
1113.836	20.64
1114.072	18.59
1114.308	15.31
1114.545	16.03
1114.781	20.73
1115.018	21.89
1115.254	17.24
1115.491	18.53
1115.727	25.16
1115.963	21.9
1116.2	21.46
1116.436	21.48
1116.672	24.23
1116.909	21.36
1117.145	18.81
1117.381	20.07
1117.618	25.74
1117.854	29.61
1118.09	22.42
1118.326	21.41
1118.563	30.39
1118.799	24.63
1119.035	20.12
1119.271	16.66
1119.508	22.88
1119.744	22.52
1119.98	13.83
1120.216	14.52
